Folder: FP/V44_Roentgenreflektometrie/data

Note: V44_Roentgenreflektometrie/data/1_detektorscan.txt
-0.5000       319
  -0.4800       460
  -0.4600       595
  -0.4400       905
  -0.4200      1362
  -0.4000      1838
  -0.3800      2529
  -0.3600      3079
  -0.3400      3803
  -0.3200      5087
  -0.3000      6886
  -0.2800      8781
  -0.2600     11127
  -0.2400     14156
  -0.2200     18088
  -0.2000     25005
  -0.1800     35581
  -0.1600     50883
  -0.1400     73432
  -0.1200    110895
  -0.1000    183648
  -0.0800    371466
  -0.0600    769421
  -0.0400   1279440
  -0.0200   1505040
   0.0000   1618610
   0.0200   1386590
   0.0400   1082370
   0.0600    596774
   0.0800    291771
   0.1000    163664
   0.1200    115905
   0.1400     83539
   0.1600     62409
   0.1800     49401
   0.2000     40061
   0.2200     31492
   0.2400     24011
   0.2600     15605
   0.2800     10110
   0.3000      6549
   0.3200      4317
   0.3400      2686
   0.3600      1594
   0.3800       815
   0.4000       352
   0.4200       162
   0.4400       131
   0.4600       123
   0.4800       134
   0.5000       127

Note: V44_Roentgenreflektometrie/data/2_z1.txt
-1.0000   1615140
  -0.9600   1620340
  -0.9200   1607630
  -0.8800   1617260
  -0.8400   1620410
  -0.8000   1613030
  -0.7600   1622080
  -0.7200   1603070
  -0.6800   1598520
  -0.6400   1617330
  -0.6000   1611480
  -0.5600   1615720
  -0.5200   1636650
  -0.4800   1615530
  -0.4400   1629460
  -0.4000   1626570
  -0.3600   1625220
  -0.3200   1617710
  -0.2800   1441230
  -0.2400   1191840
  -0.2000    683500
  -0.1600    248423
  -0.1200     13950
  -0.0800        17
  -0.0400        43
   0.0000       100
   0.0400       204
   0.0800       402
   0.1200       898
   0.1600      1744
   0.2000      3367
   0.2400      6082
   0.2800     10024
   0.3200     18426
   0.3600     45313
   0.4000    188967
   0.4400    291992
   0.4800    312058
   0.5200    241874
   0.5600    117967
   0.6000     13802
   0.6400      4293
   0.6800      1306
   0.7200       251
   0.7600        52
   0.8000         4
   0.8400         0
   0.8800         0
   0.9200         0
   0.9600         0
   1.0000         0

Note: V44_Roentgenreflektometrie/data/4_reflektivitätsscan.txt
0.0000   5375820
   0.0050   6147420
   0.0100   6580840
   0.0150   6486910
   0.0200   5981610
   0.0250   5099210
   0.0300   4061590
   0.0350   3159150
   0.0400   2515060
   0.0450   2141130
   0.0500   1940850
   0.0550   1858340
   0.0600   1825180
   0.0650   1831090
   0.0700   1859940
   0.0750   1898800
   0.0800   1954340
   0.0850   2005640
   0.0900   2088550
   0.0950   2156420
   0.1000   2229120
   0.1050   2305760
   0.1100   2381480
   0.1150   2455010
   0.1200   2523460
   0.1250   2602620
   0.1300   2664130
   0.1350   2726200
   0.1400   2776580
   0.1450   2829500
   0.1500   2893340
   0.1550   2942240
   0.1600   2977490
   0.1650   3016480
   0.1700   3081280
   0.1750   3118350
   0.1800   3156860
   0.1850   3180270
   0.1900   3215850
   0.1950   3207570
   0.2000   3135800
   0.2050   3016860
   0.2100   2846080
   0.2150   2626630
   0.2200   2325780
   0.2250   2016600
   0.2300   1705900
   0.2350   1408490
   0.2400   1122800
   0.2450    864971
   0.2500    672857
   0.2550    522902
   0.2600    411216
   0.2650    343862
   0.2700    302475
   0.2750    271526
   0.2800    241607
   0.2850    209814
   0.2900    179768
   0.2950    154345
   0.3000    136788
   0.3050    124646
   0.3100    117950
   0.3150    112667
   0.3200    104970
   0.3250     96125
   0.3300     85992
   0.3350     75454
   0.3400     67974
   0.3450     62821
   0.3500     59836
   0.3550     58864
   0.3600     56903
   0.3650     53976
   0.3700     50226
   0.3750     44980
   0.3800     40369
   0.3850     36316
   0.3900     34239
   0.3950     33141
   0.4000     32762
   0.4050     32434
   0.4100     31676
   0.4150     30060
   0.4200     27370
   0.4250     24594
   0.4300     22075
   0.4350     20225
   0.4400     19607
   0.4450     19192
   0.4500     19687
   0.4550     19679
   0.4600     19001
   0.4650     17790
   0.4700     16348
   0.4750     14552
   0.4800     13038
   0.4850     12315
   0.4900     11782
   0.4950     11710
   0.5000     12203
   0.5050     12395
   0.5100     12081
   0.5150     11535
   0.5200     10616
   0.5250      9436
   0.5300      8322
   0.5350      7679
   0.5400      7392
   0.5450      7525
   0.5500      7799
   0.5550      8088
   0.5600      8097
   0.5650      7826
   0.5700      7107
   0.5750      6364
   0.5800      5710
   0.5850      5122
   0.5900      4780
   0.5950      4931
   0.6000      5033
   0.6050      5430
   0.6100      5613
   0.6150      5475
   0.6200      4881
   0.6250      4426
   0.6300      4030
   0.6350      3423
   0.6400      3332
   0.6450      3310
   0.6500      3466
   0.6550      3586
   0.6600      3705
   0.6650      3721
   0.6700      3627
   0.6750      3186
   0.6800      2887
   0.6850      2465
   0.6900      2306
   0.6950      2145
   0.7000      2219
   0.7050      2445
   0.7100      2584
   0.7150      2595
   0.7200      2506
   0.7250      2410
   0.7300      2185
   0.7350      1809
   0.7400      1678
   0.7450      1566
   

Note: V44_Roentgenreflektometrie/data/4_rocking1.txt
-1.0000        20
  -0.9600        12
  -0.9200        30
  -0.8800        55
  -0.8400       407
  -0.8000      4897
  -0.7600     16512
  -0.7200     33697
  -0.6800     56740
  -0.6400     84496
  -0.6000    117667
  -0.5600    155223
  -0.5200    196470
  -0.4800    258907
  -0.4400    284447
  -0.4000    341256
  -0.3600    403145
  -0.3200    466061
  -0.2800    536489
  -0.2400    607241
  -0.2000    681312
  -0.1600    761734
  -0.1200    837953
  -0.0800    913264
  -0.0400    993378
   0.0000   1071310
   0.0400   1080170
   0.0800    955402
   0.1200    839991
   0.1600    732883
   0.2000    623049
   0.2400    526740
   0.2800    434310
   0.3200    354260
   0.3600    274651
   0.4000    205013
   0.4400    163712
   0.4800     99054
   0.5200     59909
   0.5600     28429
   0.6000      8237
   0.6400       579
   0.6800        80
   0.7200        44
   0.7600        43
   0.8000        15
   0.8400        16
   0.8800        12
   0.9200         6
   0.9600         3
   1.0000         4

File: 1_detektor.UXD
; C:\DIFFDAT1\Praktikum\Popp-Weitkemper\1_detektorscan.raw(Diffrac Plus V1.01 file) converted by XCH V1.0
_FILEVERSION=2
_SITE='Deutschland'
_USER='Administrator'
_GONIOMETER_CODE=4885
; D8 Theta/Theta; Special
_SAMPLE_CHANGER_CODE=0
_ATTACHMENTS_CODE=0
_GONIOMETER_RADIUS=350
_FIXED_DIVSLIT=0.600000
_FIXED_SAMPLESLIT=0.000000
_FIXED_DETSLIT=11.66
_MONOCHROMATOR=0
; None
_THIN_FILM='N'
_BETA_FILTER='Y'
_FIXED_ANTISLIT=8.340000
_ANALYZER_CODE=0
; None
_DATEMEASURED='31-Oct-2022 09:22:17'
_WL_UNIT='A'
_WL1=1.540600
_WL2=1.544390
_WL3=1.392220
_WLRATIO=0.500000
_ANODE='Cu'
; (Data for Range number 1)
_DRIVE='2THETA'
_STEPTIME=0.999980
_STEPSIZE=0.020000
_STEPMODE='C'
_START=-0.500000
_THETA=0.000000
_2THETA=-0.500000
_KHI=0.000000
_PHI=92.46
_X=5.000000
_Y=3.000000
_Z=-10
_DIVERGENCE=0.000000
_ANTISCATTER=0.000000
_DETECTOR=5
_DETECTORSLIT='unkn'
_AUX1=0.000000
_AUX2=0.000000
_AUX3=0.000000
_TIMESTARTED=2.000000
_TEMP_RATE=-1.000000
_TEMP_DELAY=-1.000000
_KV=40
_MA=35
_RANGE_WL=1.540600
_3DPLANE=0
_GONIOMETER=-0.510000
_PSDCHANNEL0=0
_2THETACOUNTS
  -0.5000       130
  -0.4800       204
  -0.4600       274
  -0.4400       319
  -0.4200       425
  -0.4000       609
  -0.3800       842
  -0.3600      1054
  -0.3400      1397
  -0.3200      1741
  -0.3000      2056
  -0.2800      2515
  -0.2600      3347
  -0.2400      4540
  -0.2200      5832
  -0.2000      7608
  -0.1800     10783
  -0.1600     15691
  -0.1400     24408
  -0.1200     40092
  -0.1000     68580
  -0.0800    134831
  -0.0600    279249
  -0.0400    523454
  -0.0200    709072
   0.0000    765897
   0.0200    656387
   0.0400    447527
   0.0600    276634
   0.0800    151972
   0.1000     95583
   0.1200     60819
   0.1400     38760
   0.1600     26470
   0.1800     19293
   0.2000     13260
   0.2200      9769
   0.2400      7640
   0.2600      5538
   0.2800      4030
   0.3000      2737
   0.3200      1611
   0.3400       803
   0.3600       347
   0.3800       155
   0.4000       106
   0.4200       101
   0.4400        89
   0.4600        80
   0.4800        63
   0.5000        62

File: 2_z1.UXD
; C:\DIFFDAT1\Praktikum\Popp-Weitkemper\2_zscan.raw(Diffrac Plus V1.01 file) converted by XCH V1.0
_FILEVERSION=2
_SITE='Deutschland'
_USER='Administrator'
_GONIOMETER_CODE=4885
; D8 Theta/Theta; Special
_SAMPLE_CHANGER_CODE=0
_ATTACHMENTS_CODE=0
_GONIOMETER_RADIUS=350
_FIXED_DIVSLIT=0.600000
_FIXED_SAMPLESLIT=0.000000
_FIXED_DETSLIT=11.66
_MONOCHROMATOR=0
; None
_THIN_FILM='N'
_BETA_FILTER='Y'
_FIXED_ANTISLIT=8.340000
_ANALYZER_CODE=0
; None
_DATEMEASURED='31-Oct-2022 09:25:58'
_WL_UNIT='A'
_WL1=1.540600
_WL2=1.544390
_WL3=1.392220
_WLRATIO=0.500000
_ANODE='Cu'
; (Data for Range number 1)
_DRIVE='Z'
_STEPTIME=1.000000
_STEPSIZE=0.040000
_STEPMODE='S'
_START=-1.000000
_THETA=0.000000
_2THETA=0.000000
_KHI=0.000000
_PHI=92.46
_X=5.000000
_Y=3.000000
_Z=-1.000000
_DIVERGENCE=0.000000
_ANTISCATTER=0.000000
_DETECTOR=5
_DETECTORSLIT='unkn'
_AUX1=0.000000
_AUX2=0.000000
_AUX3=0.000000
_TIMESTARTED=5.000000
_TEMP_RATE=-1.000000
_TEMP_DELAY=-1.000000
_KV=40
_MA=35
_RANGE_WL=1.540600
_3DPLANE=0
_GONIOMETER=0.000000
_PSDCHANNEL0=0
_2THETACOUNTS
  -1.0000    790798
  -0.9600    794313
  -0.9200    795269
  -0.8800    792741
  -0.8400    794890
  -0.8000    788941
  -0.7600    793579
  -0.7200    786271
  -0.6800    794859
  -0.6400    792726
  -0.6000    793136
  -0.5600    788918
  -0.5200    790166
  -0.4800    794306
  -0.4400    791541
  -0.4000    793279
  -0.3600    791406
  -0.3200    791375
  -0.2800    791596
  -0.2400    788926
  -0.2000    794100
  -0.1600    794219
  -0.1200    792741
  -0.0800    792694
  -0.0400    790134
   0.0000    791967
   0.0400    796423
   0.0800    788515
   0.1200    769286
   0.1600    581835
   0.2000    284416
   0.2400     54469
   0.2800        40
   0.3200         4
   0.3600         0
   0.4000         0
   0.4400         0
   0.4800         4
   0.5200         3
   0.5600        19
   0.6000        40
   0.6400        64
   0.6800       136
   0.7200       403
   0.7600       950
   0.8000      2210
   0.8400      7227
   0.8800     18859
   0.9200     28329
   0.9600      8992
   1.0000       163

File: 3_x.UXD
; C:\DIFFDAT1\Praktikum\Popp-Weitkemper\3_xscan.raw(Diffrac Plus V1.01 file) converted by XCH V1.0
_FILEVERSION=2
_SITE='Deutschland'
_USER='Administrator'
_GONIOMETER_CODE=4885
; D8 Theta/Theta; Special
_SAMPLE_CHANGER_CODE=0
_ATTACHMENTS_CODE=0
_GONIOMETER_RADIUS=350
_FIXED_DIVSLIT=0.600000
_FIXED_SAMPLESLIT=0.000000
_FIXED_DETSLIT=11.66
_MONOCHROMATOR=0
; None
_THIN_FILM='N'
_BETA_FILTER='Y'
_FIXED_ANTISLIT=8.340000
_ANALYZER_CODE=0
; None
_DATEMEASURED='31-Oct-2022 09:30:35'
_WL_UNIT='A'
_WL1=1.540600
_WL2=1.544390
_WL3=1.392220
_WLRATIO=0.500000
_ANODE='Cu'
; (Data for Range number 1)
_DRIVE='X'
_STEPTIME=1.000000
_STEPSIZE=1.000000
_STEPMODE='S'
_START=-20
_THETA=0.000000
_2THETA=0.000000
_KHI=0.000000
_PHI=92.46
_X=-20
_Y=3.000000
_Z=0.185000
_DIVERGENCE=0.000000
_ANTISCATTER=0.000000
_DETECTOR=5
_DETECTORSLIT='unkn'
_AUX1=0.000000
_AUX2=0.000000
_AUX3=0.000000
_TIMESTARTED=5.000000
_TEMP_RATE=-1.000000
_TEMP_DELAY=-1.000000
_KV=40
_MA=35
_RANGE_WL=1.540600
_3DPLANE=0
_GONIOMETER=0.000000
_PSDCHANNEL0=0
_2THETACOUNTS
 -20.0000    789984
 -19.0000    795072
 -18.0000    792963
 -17.0000    791043
 -16.0000    790806
 -15.0000    790743
 -14.0000    791367
 -13.0000    793595
 -12.0000    791327
 -11.0000    766687
 -10.0000    654254
  -9.0000    640935
  -8.0000    625656
  -7.0000    609675
  -6.0000    594364
  -5.0000    582048
  -4.0000    561745
  -3.0000    547928
  -2.0000    533108
  -1.0000    512963
   0.0000    494185
   1.0000    480873
   2.0000    461447
   3.0000    444683
   4.0000    426197
   5.0000    406747
   6.0000    391966
   7.0000    377849
   8.0000    358060
   9.0000    347734
  10.0000    714516
  11.0000    790284
  12.0000    789376
  13.0000    792086
  14.0000    786255
  15.0000    790814
  16.0000    789842
  17.0000    788704
  18.0000    787535
  19.0000    788349
  20.0000    790948

File: 6_rocking_3.UXD
; C:\DIFFDAT1\Praktikum\Popp-Weitkemper\6_rockingscan_3.raw(Diffrac Plus V1.01 file) converted by XCH V1.0
_FILEVERSION=2
_SITE='Deutschland'
_USER='Administrator'
_GONIOMETER_CODE=4885
; D8 Theta/Theta; Special
_SAMPLE_CHANGER_CODE=0
_ATTACHMENTS_CODE=0
_GONIOMETER_RADIUS=350
_FIXED_DIVSLIT=0.600000
_FIXED_SAMPLESLIT=0.000000
_FIXED_DETSLIT=11.66
_MONOCHROMATOR=0
; None
_THIN_FILM='N'
_BETA_FILTER='Y'
_FIXED_ANTISLIT=8.340000
_ANALYZER_CODE=0
; None
_DATEMEASURED='31-Oct-2022 10:24:20'
_WL_UNIT='A'
_WL1=1.540600
_WL2=1.544390
_WL3=1.392220
_WLRATIO=0.500000
_ANODE='Cu'
; (Data for Range number 1)
_DRIVE='THETA'
_STEPTIME=0.999980
_STEPSIZE=0.005000
_STEPMODE='C'
_START=0.000000
_THETA=0.000000
_2THETA=0.300000
_KHI=0.000000
_PHI=92.46
_X=-1.000000
_Y=-1.500000
_Z=0.218000
_DIVERGENCE=0.000000
_ANTISCATTER=0.000000
_DETECTOR=5
_DETECTORSLIT='unkn'
_AUX1=0.000000
_AUX2=0.000000
_AUX3=0.000000
_TIMESTARTED=2.000000
_TEMP_RATE=-1.000000
_TEMP_DELAY=-1.000000
_KV=40
_MA=35
_RANGE_WL=1.540600
_3DPLANE=0
_GONIOMETER=0.299000
_PSDCHANNEL0=0
_2THETACOUNTS
   0.0000      3352
   0.0050      3328
   0.0100      3314
   0.0150      3387
   0.0200      3429
   0.0250      3389
   0.0300      3373
   0.0350      3593
   0.0400      3551
   0.0450      3809
   0.0500      3772
   0.0550      3907
   0.0600      4194
   0.0650      4594
   0.0700      4957
   0.0750      5576
   0.0800      6270
   0.0850      7340
   0.0900      8577
   0.0950     10492
   0.1000     12701
   0.1050     15502
   0.1100     17766
   0.1150     21202
   0.1200     25414
   0.1250     36759
   0.1300     69424
   0.1350    134931
   0.1400    221540
   0.1450    284258
   0.1500    314799
   0.1550    318797
   0.1600    323450
   0.1650    300421
   0.1700    256466
   0.1750    178248
   0.1800     96707
   0.1850     53025
   0.1900     30096
   0.1950     23424
   0.2000     19201
   0.2050     15115
   0.2100     11998
   0.2150      9594
   0.2200      8120
   0.2250      6945
   0.2300      5741
   0.2350      5136
   0.2400      4693
   0.2450      4416
   0.2500      4144
   0.2550      3961
   0.2600      3882
   0.2650      3694
   0.2700      3530
   0.2750      3470
   0.2800      3639
   0.2850      3480
   0.2900      3479
   0.2950      3539
   0.3000      3396

File: 8_reflektivitaet.UXD
; C:\DIFFDAT1\Praktikum\Popp-Weitkemper\8_reflektivitaetsscan.raw(Diffrac Plus V1.01 file) converted by XCH V1.0
_FILEVERSION=2
_SITE='Deutschland'
_USER='Administrator'
_GONIOMETER_CODE=4885
; D8 Theta/Theta; Special
_SAMPLE_CHANGER_CODE=0
_ATTACHMENTS_CODE=0
_GONIOMETER_RADIUS=350
_FIXED_DIVSLIT=0.600000
_FIXED_SAMPLESLIT=0.000000
_FIXED_DETSLIT=11.66
_MONOCHROMATOR=0
; None
_THIN_FILM='N'
_BETA_FILTER='Y'
_FIXED_ANTISLIT=8.340000
_ANALYZER_CODE=0
; None
_DATEMEASURED='31-Oct-2022 10:35:14'
_WL_UNIT='A'
_WL1=1.540600
_WL2=1.544390
_WL3=1.392220
_WLRATIO=0.500000
_ANODE='Cu'
; (Data for Range number 1)
_DRIVE='THETA'
_STEPTIME=5.000660
_STEPSIZE=0.005000
_STEPMODE='C'
_START=0.000000
_THETA=0.000000
_2THETA=0.000000
_KHI=0.000000
_PHI=92.46
_X=-1.000000
_Y=-1.500000
_Z=0.227000
_DIVERGENCE=0.000000
_ANTISCATTER=0.000000
_DETECTOR=5
_DETECTORSLIT='unkn'
_AUX1=0.000000
_AUX2=0.000000
_AUX3=0.000000
_TIMESTARTED=2.000000
_TEMP_RATE=-1.000000
_TEMP_DELAY=-1.000000
_KV=40
_MA=35
_RANGE_WL=1.540600
_3DPLANE=0
_GONIOMETER=-0.002500
_PSDCHANNEL0=0
_2THETACOUNTS
   0.0000   1698580
   0.0100   2360680
   0.0200   2726100
   0.0300   2271070
   0.0400   1579690
   0.0500   1176410
   0.0600   1045040
   0.0700   1021680
   0.0800   1038450
   0.0900   1108400
   0.1000   1183080
   0.1100   1282580
   0.1200   1366000
   0.1300   1470200
   0.1400   1565880
   0.1500   1624410
   0.1600   1669700
   0.1700   1684260
   0.1800   1753990
   0.1900   1819430
   0.2000   1876940
   0.2100   1823760
   0.2200   1590970
   0.2300   1176760
   0.2400    729586
   0.2500    415355
   0.2600    262087
   0.2700    198154
   0.2800    142141
   0.2900     96309
   0.3000     76754
   0.3100     71754
   0.3200     62170
   0.3300     45398
   0.3400     34690
   0.3500     33012
   0.3600     32056
   0.3700     27388
   0.3800     20341
   0.3900     16803
   0.4000     16579
   0.4100     16386
   0.4200     14070
   0.4300     10656
   0.4400      9209
   0.4500      9086
   0.4600      9094
   0.4700      8243
   0.4800      6421
   0.4900      5508
   0.5000      5554
   0.5100      5503
   0.5200      4876
   0.5300      4065
   0.5400      3358
   0.5500      3358
   0.5600      3263
   0.5700      3040
   0.5800      2548
   0.5900      2134
   0.6000      2154
   0.6100      2136
   0.6200      2048
   0.6300      1722
   0.6400      1434
   0.6500      1393
   0.6600      1401
   0.6700      1257
   0.6800      1254
   0.6900      1024
   0.7000       937
   0.7100       961
   0.7200       964
   0.7300       855
   0.7400       731
   0.7500       664
   0.7600       666
   0.7700       628
   0.7800       622
   0.7900       537
   0.8000       492
   0.8100       430
   0.8200       461
   0.8300       399
   0.8400       364
   0.8500       374
   0.8600       358
   0.8700       322
   0.8800       367
   0.8900       288
   0.9000       267
   0.9100       265
   0.9200       246
   0.9300       224
   0.9400       214
   0.9500       180
   0.9600       177
   0.9700       161
   0.9800       200
   0.9900       162
   1.0000       133
   1.0100       122
   1.0200       116
   1.0300       124
   1.0400        99
   1.0500        95
   1.0600        86
   1.0700        91
   1.0800        90
   1.0900        82
   1.1000        69
   1.1100        80
   1.1200        73
   1.1300        71
   1.1400        66
   1.1500        65
   1.1600        53
   1.1700        52
   1.1800        46
   1.1900        52
   1.2000        46
   1.2100        41
   1.2200        38
   1.2300        28
   1.2400        28
   1.2500        37
   1.2600        33
   1.2700        29
   1.2800        35
   1.2900        30
   1.3000        25
   1.3100        18
   1.3200        26
   1.3300        20
   1.3400        26
   1.3500        23
   1.3600        23
   1.3700        22
   1.3800        25
   1.3900        21
   1.4000        18
   1.4100        10
   1.4200        12
   1.4300        18
   1.4400        15
   1.4500        15
   1.4600        16
   1.4700        11
   1.4800         6
   1.4900         8
   1.5000         9
   1.5100        14
   1.5200         5
   1.5300         5
   1.5400         7
   1.5500         6
   1.5600         4
   1.5700         6
   1.5800         9
   1.5900         5
   1.6000         8
   1.6100         5
   1.6200         6
   1.6300         7
   1.6400         6
   1.6500         4
   1.6600         2
   1.6700         3
   1.6800         5
   1.6900         3
   1.7000         9
   1.7100         1
   1.7200         4
   1.7300         4
   1.7400         2
   1.7500         1
   1.7600         0
   1.7700         7
   1.7800         5
   1.7900         2
   1.8000         3
   1.8100         3
   1.8200         1
   1.8300         3
   1.8400         3
   1.8500         3
   1.8600         1
   1.8700         5
   1.8800         3
   1.8900         1
   1.9000         2
   1.9100         3
   1.9200         1
   1.9300         0
   1.9400         6
   1.9500         2
   1.9600         2
   1.9700         1
   1.9800         3
   1.9900         0
   2.0000         0
   2.0100         2
   2.0200         0
   2.0300         0
   2.0400         1
   2.0500         1
   2.0600         3
   2.0700         1
   2.0800         0
   2.0900         0
   2.1000         2
   2.1100         0
   2.1200         2
   2.1300         1
   2.1400         1
   2.1500         2
   2.1600         0
   2.1700         0
   2.1800         1
   2.1900         2
   2.2000         1
   2.2100         1
   2.2200         0
   2.2300         0
   2.2400         0
   2.2500         0
   2.2600         0
   2.2700         1
   2.2800         0
   2.2900         1
   2.3000         0
   2.3100         0
   2.3200         0
   2.3300         1
   2.3400         1
   2.3500         0
   2.3600         1
   2.3700         0
   2.3800         1
   2.3900         1
   2.4000         2
   2.4100         1
   2.4200         0
   2.4300         0
   2.4400         0
   2.4500         1
   2.4600         2
   2.4700         0
   2.4800         1
   2.4900         0
   2.5000         0