Folder: FP/V44_Roentgenreflektometrie/V44_data

File: 4_rockingscan_y3.UXD
; C:\DIFFDAT1\Praktikum\Popp-Weitkemper\4_rockingscan_y3.raw(Diffrac Plus V1.01 file) converted by XCH V1.0
_FILEVERSION=2
_SITE='Deutschland'
_USER='Administrator'
_GONIOMETER_CODE=4885
; D8 Theta/Theta; Special
_SAMPLE_CHANGER_CODE=0
_ATTACHMENTS_CODE=0
_GONIOMETER_RADIUS=350
_FIXED_DIVSLIT=0.600000
_FIXED_SAMPLESLIT=0.000000
_FIXED_DETSLIT=11.66
_MONOCHROMATOR=0
; None
_THIN_FILM='N'
_BETA_FILTER='Y'
_FIXED_ANTISLIT=8.340000
_ANALYZER_CODE=0
; None
_DATEMEASURED='31-Oct-2022 09:37:04'
_WL_UNIT='A'
_WL1=1.540600
_WL2=1.544390
_WL3=1.392220
_WLRATIO=0.500000
_ANODE='Cu'
; (Data for Range number 1)
_DRIVE='THETA'
_STEPTIME=1.000000
_STEPSIZE=0.040000
_STEPMODE='C'
_START=-1.000000
_THETA=-1.000000
_2THETA=0.000000
_KHI=0.000000
_PHI=92.46
_X=-1.000000
_Y=3.000000
_Z=0.185000
_DIVERGENCE=0.000000
_ANTISCATTER=0.000000
_DETECTOR=5
_DETECTORSLIT='unkn'
_AUX1=0.000000
_AUX2=0.000000
_AUX3=0.000000
_TIMESTARTED=3.000000
_TEMP_RATE=-1.000000
_TEMP_DELAY=-1.000000
_KV=40
_MA=35
_RANGE_WL=1.540600
_3DPLANE=0
_GONIOMETER=-0.006000
_PSDCHANNEL0=0
_2THETACOUNTS
  -1.0000         0
  -0.9600         0
  -0.9200         0
  -0.8800         0
  -0.8400         0
  -0.8000         0
  -0.7600         0
  -0.7200         2
  -0.6800         2
  -0.6400         3
  -0.6000         0
  -0.5600         2
  -0.5200         4
  -0.4800        13
  -0.4400        24
  -0.4000       114
  -0.3600      5386
  -0.3200     24289
  -0.2800     56736
  -0.2400    103809
  -0.2000    165983
  -0.1600    222298
  -0.1200    298509
  -0.0800    377225
  -0.0400    452204
   0.0000    525540
   0.0400    585674
   0.0800    559620
   0.1200    533637
   0.1600    501216
   0.2000    469647
   0.2400    437763
   0.2800    405957
   0.3200    375226
   0.3600    348129
   0.4000    313954
   0.4400    281019
   0.4800    252057
   0.5200    219423
   0.5600    190256
   0.6000    163119
   0.6400    146906
   0.6800    122051
   0.7200     99201
   0.7600     78156
   0.8000     59055
   0.8400     42335
   0.8800     28706
   0.9200     17630
   0.9600      9255
   1.0000      3461

File: 4_rockingscan_y5.UXD
; C:\DIFFDAT1\Praktikum\Popp-Weitkemper\4_rockingscan_y5.raw(Diffrac Plus V1.01 file) converted by XCH V1.0
_FILEVERSION=2
_SITE='Deutschland'
_USER='Administrator'
_GONIOMETER_CODE=4885
; D8 Theta/Theta; Special
_SAMPLE_CHANGER_CODE=0
_ATTACHMENTS_CODE=0
_GONIOMETER_RADIUS=350
_FIXED_DIVSLIT=0.600000
_FIXED_SAMPLESLIT=0.000000
_FIXED_DETSLIT=11.66
_MONOCHROMATOR=0
; None
_THIN_FILM='N'
_BETA_FILTER='Y'
_FIXED_ANTISLIT=8.340000
_ANALYZER_CODE=0
; None
_DATEMEASURED='31-Oct-2022 09:40:03'
_WL_UNIT='A'
_WL1=1.540600
_WL2=1.544390
_WL3=1.392220
_WLRATIO=0.500000
_ANODE='Cu'
; (Data for Range number 1)
_DRIVE='THETA'
_STEPTIME=1.000000
_STEPSIZE=0.040000
_STEPMODE='C'
_START=-1.000000
_THETA=-1.000000
_2THETA=0.000000
_KHI=0.000000
_PHI=92.46
_X=-1.000000
_Y=5.000000
_Z=0.185000
_DIVERGENCE=0.000000
_ANTISCATTER=0.000000
_DETECTOR=5
_DETECTORSLIT='unkn'
_AUX1=0.000000
_AUX2=0.000000
_AUX3=0.000000
_TIMESTARTED=3.000000
_TEMP_RATE=-1.000000
_TEMP_DELAY=-1.000000
_KV=40
_MA=35
_RANGE_WL=1.540600
_3DPLANE=0
_GONIOMETER=-0.002900
_PSDCHANNEL0=0
_2THETACOUNTS
  -1.0000         0
  -0.9600         0
  -0.9200         0
  -0.8800         0
  -0.8400         1
  -0.8000         0
  -0.7600         0
  -0.7200         0
  -0.6800         0
  -0.6400         0
  -0.6000         3
  -0.5600         1
  -0.5200         4
  -0.4800         5
  -0.4400         6
  -0.4000        18
  -0.3600       147
  -0.3200      6904
  -0.2800     30414
  -0.2400     73940
  -0.2000    135830
  -0.1600    198962
  -0.1200    287276
  -0.0800    376222
  -0.0400    463090
   0.0000    545779
   0.0400    613885
   0.0800    594396
   0.1200    573327
   0.1600    553869
   0.2000    539870
   0.2400    514511
   0.2800    492107
   0.3200    475469
   0.3600    448357
   0.4000    427793
   0.4400    406036
   0.4800    384003
   0.5200    362199
   0.5600    336888
   0.6000    314673
   0.6400    295215
   0.6800    275173
   0.7200    256395
   0.7600    231984
   0.8000    211894
   0.8400    187301
   0.8800    168152
   0.9200    157214
   0.9600    137363
   1.0000    118145

File: 4_rockingscan_y-1.UXD
; C:\DIFFDAT1\Praktikum\Popp-Weitkemper\4_rockingscan_y-1.raw(Diffrac Plus V1.01 file) converted by XCH V1.0
_FILEVERSION=2
_SITE='Deutschland'
_USER='Administrator'
_GONIOMETER_CODE=4885
; D8 Theta/Theta; Special
_SAMPLE_CHANGER_CODE=0
_ATTACHMENTS_CODE=0
_GONIOMETER_RADIUS=350
_FIXED_DIVSLIT=0.600000
_FIXED_SAMPLESLIT=0.000000
_FIXED_DETSLIT=11.66
_MONOCHROMATOR=0
; None
_THIN_FILM='N'
_BETA_FILTER='Y'
_FIXED_ANTISLIT=8.340000
_ANALYZER_CODE=0
; None
_DATEMEASURED='31-Oct-2022 09:46:51'
_WL_UNIT='A'
_WL1=1.540600
_WL2=1.544390
_WL3=1.392220
_WLRATIO=0.500000
_ANODE='Cu'
; (Data for Range number 1)
_DRIVE='THETA'
_STEPTIME=1.000000
_STEPSIZE=0.040000
_STEPMODE='C'
_START=-1.000000
_THETA=-1.000000
_2THETA=0.000000
_KHI=0.000000
_PHI=92.46
_X=-1.000000
_Y=-1.000000
_Z=0.185000
_DIVERGENCE=0.000000
_ANTISCATTER=0.000000
_DETECTOR=5
_DETECTORSLIT='unkn'
_AUX1=0.000000
_AUX2=0.000000
_AUX3=0.000000
_TIMESTARTED=3.000000
_TEMP_RATE=-1.000000
_TEMP_DELAY=-1.000000
_KV=40
_MA=35
_RANGE_WL=1.540600
_3DPLANE=0
_GONIOMETER=0.000000
_PSDCHANNEL0=0
_2THETACOUNTS
  -1.0000         0
  -0.9600         1
  -0.9200         1
  -0.8800         0
  -0.8400         2
  -0.8000         2
  -0.7600         2
  -0.7200         8
  -0.6800         9
  -0.6400        12
  -0.6000        20
  -0.5600        45
  -0.5200       524
  -0.4800      6110
  -0.4400     19309
  -0.4000     40533
  -0.3600     71053
  -0.3200    108466
  -0.2800    152963
  -0.2400    189924
  -0.2000    244853
  -0.1600    299489
  -0.1200    355769
  -0.0800    412127
  -0.0400    466851
   0.0000    516889
   0.0400    550259
   0.0800    516265
   0.1200    469647
   0.1600    421860
   0.2000    372746
   0.2400    321009
   0.2800    272432
   0.3200    223839
   0.3600    176044
   0.4000    143052
   0.4400    102931
   0.4800     67905
   0.5200     40977
   0.5600     21367
   0.6000      8511
   0.6400      1459
   0.6800        89
   0.7200        30
   0.7600        14
   0.8000        10
   0.8400         5
   0.8800         2
   0.9200         2
   0.9600         4
   1.0000         2

File: 7_zscan.UXD
; C:\DIFFDAT1\Praktikum\Popp-Weitkemper\7_zscan.raw(Diffrac Plus V1.01 file) converted by XCH V1.0
_FILEVERSION=2
_SITE='Deutschland'
_USER='Administrator'
_GONIOMETER_CODE=4885
; D8 Theta/Theta; Special
_SAMPLE_CHANGER_CODE=0
_ATTACHMENTS_CODE=0
_GONIOMETER_RADIUS=350
_FIXED_DIVSLIT=0.600000
_FIXED_SAMPLESLIT=0.000000
_FIXED_DETSLIT=11.66
_MONOCHROMATOR=0
; None
_THIN_FILM='N'
_BETA_FILTER='Y'
_FIXED_ANTISLIT=8.340000
_ANALYZER_CODE=0
; None
_DATEMEASURED='31-Oct-2022 10:26:36'
_WL_UNIT='A'
_WL1=1.540600
_WL2=1.544390
_WL3=1.392220
_WLRATIO=0.500000
_ANODE='Cu'
; (Data for Range number 1)
_DRIVE='Z'
_STEPTIME=1.000000
_STEPSIZE=0.020000
_STEPMODE='S'
_START=-0.100000
_THETA=0.150000
_2THETA=0.300000
_KHI=0.000000
_PHI=92.46
_X=-1.000000
_Y=-1.500000
_Z=-0.100000
_DIVERGENCE=0.000000
_ANTISCATTER=0.000000
_DETECTOR=5
_DETECTORSLIT='unkn'
_AUX1=0.000000
_AUX2=0.000000
_AUX3=0.000000
_TIMESTARTED=3.000000
_TEMP_RATE=-1.000000
_TEMP_DELAY=-1.000000
_KV=40
_MA=35
_RANGE_WL=1.540600
_3DPLANE=0
_GONIOMETER=0.300000
_PSDCHANNEL0=0
_2THETACOUNTS
  -0.1000      3732
  -0.0800      3901
  -0.0600      4670
  -0.0400      6205
  -0.0200      8038
   0.0000     11078
   0.0200     15290
   0.0400     21444
   0.0600     30133
   0.0800     42893
   0.1000     62043
   0.1200     89769
   0.1400    130685
   0.1600    184812
   0.1800    234685
   0.2000    285103
   0.2200    321167
   0.2400    317667
   0.2600    274335
   0.2800    212913
   0.3000    151641
   0.3200    112246
   0.3400     76244
   0.3600     50135
   0.3800     34781
   0.4000     24712
   0.4200     18214
   0.4400     12560
   0.4600      8941
   0.4800      6956
   0.5000      5192

File: 9_diffscan.UXD
; C:\DIFFDAT1\Praktikum\Popp-Weitkemper\9_diffscan.raw(Diffrac Plus V1.01 file) converted by XCH V1.0
_FILEVERSION=2
_SITE='Deutschland'
_USER='Administrator'
_GONIOMETER_CODE=4885
; D8 Theta/Theta; Special
_SAMPLE_CHANGER_CODE=0
_ATTACHMENTS_CODE=0
_GONIOMETER_RADIUS=350
_FIXED_DIVSLIT=0.600000
_FIXED_SAMPLESLIT=0.000000
_FIXED_DETSLIT=11.66
_MONOCHROMATOR=0
; None
_THIN_FILM='N'
_BETA_FILTER='Y'
_FIXED_ANTISLIT=8.340000
_ANALYZER_CODE=0
; None
_DATEMEASURED='31-Oct-2022 11:23:10'
_WL_UNIT='A'
_WL1=1.540600
_WL2=1.544390
_WL3=1.392220
_WLRATIO=0.500000
_ANODE='Cu'
; (Data for Range number 1)
_DRIVE='THETA'
_STEPTIME=5.000660
_STEPSIZE=0.005000
_STEPMODE='C'
_START=0.000000
_THETA=0.000000
_2THETA=0.100000
_KHI=0.000000
_PHI=92.46
_X=-1.000000
_Y=-1.500000
_Z=0.227000
_DIVERGENCE=0.000000
_ANTISCATTER=0.000000
_DETECTOR=5
_DETECTORSLIT='unkn'
_AUX1=0.000000
_AUX2=0.000000
_AUX3=0.000000
_TIMESTARTED=2.000000
_TEMP_RATE=-1.000000
_TEMP_DELAY=-1.000000
_KV=40
_MA=35
_RANGE_WL=1.540600
_3DPLANE=0
_GONIOMETER=0.097500
_PSDCHANNEL0=0
_2THETACOUNTS
   0.0000    650882
   0.0100    419876
   0.0200    283176
   0.0300    186298
   0.0400    141297
   0.0500    118312
   0.0600     99690
   0.0700     89268
   0.0800     85552
   0.0900     83125
   0.1000     76091
   0.1100     67571
   0.1200     55831
   0.1300     45344
   0.1400     37677
   0.1500     29820
   0.1600     24102
   0.1700     20526
   0.1800     17949
   0.1900     15551
   0.2000     13286
   0.2100     10438
   0.2200      7424
   0.2300      4603
   0.2400      2937
   0.2500      1973
   0.2600      1511
   0.2700      1168
   0.2800       894
   0.2900       708
   0.3000       622
   0.3100       434
   0.3200       379
   0.3300       309
   0.3400       347
   0.3500       268
   0.3600       218
   0.3700       204
   0.3800       171
   0.3900       192
   0.4000       159
   0.4100       142
   0.4200       135
   0.4300       137
   0.4400       110
   0.4500       110
   0.4600        98
   0.4700        98
   0.4800        90
   0.4900        97
   0.5000        82
   0.5100        78
   0.5200        75
   0.5300        79
   0.5400        58
   0.5500        66
   0.5600        60
   0.5700        72
   0.5800        64
   0.5900        68
   0.6000        68
   0.6100        71
   0.6200        66
   0.6300        55
   0.6400        45
   0.6500        56
   0.6600        47
   0.6700        50
   0.6800        33
   0.6900        37
   0.7000        27
   0.7100        37
   0.7200        27
   0.7300        40
   0.7400        23
   0.7500        26
   0.7600        39
   0.7700        35
   0.7800        21
   0.7900        27
   0.8000        14
   0.8100        19
   0.8200        23
   0.8300        21
   0.8400        11
   0.8500        23
   0.8600        14
   0.8700        28
   0.8800        24
   0.8900         7
   0.9000        17
   0.9100        10
   0.9200        16
   0.9300        21
   0.9400         8
   0.9500        14
   0.9600        15
   0.9700        18
   0.9800        14
   0.9900         6
   1.0000        13
   1.0100         8
   1.0200         9
   1.0300         5
   1.0400         9
   1.0500         4
   1.0600         7
   1.0700         8
   1.0800         8
   1.0900         5
   1.1000        11
   1.1100         5
   1.1200         3
   1.1300         4
   1.1400         7
   1.1500         6
   1.1600         4
   1.1700         2
   1.1800         6
   1.1900         7
   1.2000         1
   1.2100         3
   1.2200         2
   1.2300         3
   1.2400         2
   1.2500         5
   1.2600         4
   1.2700         4
   1.2800         5
   1.2900         4
   1.3000         4
   1.3100         1
   1.3200         2
   1.3300         2
   1.3400         0
   1.3500         1
   1.3600         3
   1.3700         2
   1.3800         3
   1.3900         2
   1.4000         2
   1.4100         0
   1.4200         0
   1.4300         0
   1.4400         1
   1.4500         1
   1.4600         2
   1.4700         2
   1.4800         2
   1.4900         1
   1.5000         1
   1.5100         2
   1.5200         2
   1.5300         2
   1.5400         0
   1.5500         0
   1.5600         1
   1.5700         0
   1.5800         0
   1.5900         0
   1.6000         4
   1.6100         1
   1.6200         1
   1.6300         0
   1.6400         0
   1.6500         0
   1.6600         0
   1.6700         0
   1.6800         0
   1.6900         0
   1.7000         0
   1.7100         0
   1.7200         2
   1.7300         0
   1.7400         1
   1.7500         0
   1.7600         1
   1.7700         2
   1.7800         0
   1.7900         0
   1.8000         0
   1.8100         1
   1.8200         0
   1.8300         1
   1.8400         2
   1.8500         1
   1.8600         0
   1.8700         1
   1.8800         0
   1.8900         0
   1.9000         0
   1.9100         1
   1.9200         0
   1.9300         0
   1.9400         1
   1.9500         1
   1.9600         1
   1.9700         0
   1.9800         0
   1.9900         2
   2.0000         0
   2.0100         0
   2.0200         1
   2.0300         0
   2.0400         0
   2.0500         2
   2.0600         0
   2.0700         0
   2.0800         0
   2.0900         2
   2.1000         0
   2.1100         0
   2.1200         0
   2.1300         0
   2.1400         0
   2.1500         0
   2.1600         0
   2.1700         2
   2.1800         0
   2.1900         2
   2.2000         0
   2.2100         0
   2.2200         3
   2.2300         0
   2.2400         0
   2.2500         0
   2.2600         1
   2.2700         0
   2.2800         0
   2.2900         0
   2.3000         0
   2.3100         0
   2.3200         1
   2.3300         0
   2.3400         0
   2.3500         0
   2.3600         0
   2.3700         0
   2.3800         1
   2.3900         0
   2.4000         0
   2.4100         0
   2.4200         0
   2.4300         0
   2.4400         0
   2.4500         0
   2.4600         2
   2.4700         0
   2.4800         0
   2.4900         1
   2.5000         2