Folder: FP/V44_Roentgenreflektometrie/data/unused

File: 4_rocking_y0.UXD
; C:\DIFFDAT1\Praktikum\Popp-Weitkemper\4_rockingscan_y0.raw(Diffrac Plus V1.01 file) converted by XCH V1.0
_FILEVERSION=2
_SITE='Deutschland'
_USER='Administrator'
_GONIOMETER_CODE=4885
; D8 Theta/Theta; Special
_SAMPLE_CHANGER_CODE=0
_ATTACHMENTS_CODE=0
_GONIOMETER_RADIUS=350
_FIXED_DIVSLIT=0.600000
_FIXED_SAMPLESLIT=0.000000
_FIXED_DETSLIT=11.66
_MONOCHROMATOR=0
; None
_THIN_FILM='N'
_BETA_FILTER='Y'
_FIXED_ANTISLIT=8.340000
_ANALYZER_CODE=0
; None
_DATEMEASURED='31-Oct-2022 09:44:42'
_WL_UNIT='A'
_WL1=1.540600
_WL2=1.544390
_WL3=1.392220
_WLRATIO=0.500000
_ANODE='Cu'
; (Data for Range number 1)
_DRIVE='THETA'
_STEPTIME=1.000000
_STEPSIZE=0.040000
_STEPMODE='C'
_START=-1.000000
_THETA=-1.000000
_2THETA=0.000000
_KHI=0.000000
_PHI=92.46
_X=-1.000000
_Y=0.000000
_Z=0.185000
_DIVERGENCE=0.000000
_ANTISCATTER=0.000000
_DETECTOR=5
_DETECTORSLIT='unkn'
_AUX1=0.000000
_AUX2=0.000000
_AUX3=0.000000
_TIMESTARTED=2.000000
_TEMP_RATE=-1.000000
_TEMP_DELAY=-1.000000
_KV=40
_MA=35
_RANGE_WL=1.540600
_3DPLANE=0
_GONIOMETER=-0.002900
_PSDCHANNEL0=0
_2THETACOUNTS
  -1.0000         0
  -0.9600         1
  -0.9200         2
  -0.8800         1
  -0.8400         0
  -0.8000         1
  -0.7600         0
  -0.7200         1
  -0.6800         3
  -0.6400         6
  -0.6000         9
  -0.5600        13
  -0.5200        43
  -0.4800       392
  -0.4400      6504
  -0.4000     21220
  -0.3600     46127
  -0.3200     81978
  -0.2800    124329
  -0.2400    177494
  -0.2000    221579
  -0.1600    282346
  -0.1200    345451
  -0.0800    404662
  -0.0400    464725
   0.0000    522119
   0.0400    568682
   0.0800    533045
   0.1200    480028
   0.1600    444857
   0.2000    396509
   0.2400    351321
   0.2800    307136
   0.3200    262707
   0.3600    217629
   0.4000    176368
   0.4400    146081
   0.4800    108780
   0.5200     76585
   0.5600     49960
   0.6000     29968
   0.6400     15346
   0.6800      5589
   0.7200       679
   0.7600        53
   0.8000        20
   0.8400         7
   0.8800         7
   0.9200         8
   0.9600         6
   1.0000         2

File: 4_rocking_y1.UXD
; C:\DIFFDAT1\Praktikum\Popp-Weitkemper\4_rockingscan_y1.raw(Diffrac Plus V1.01 file) converted by XCH V1.0
_FILEVERSION=2
_SITE='Deutschland'
_USER='Administrator'
_GONIOMETER_CODE=4885
; D8 Theta/Theta; Special
_SAMPLE_CHANGER_CODE=0
_ATTACHMENTS_CODE=0
_GONIOMETER_RADIUS=350
_FIXED_DIVSLIT=0.600000
_FIXED_SAMPLESLIT=0.000000
_FIXED_DETSLIT=11.66
_MONOCHROMATOR=0
; None
_THIN_FILM='N'
_BETA_FILTER='Y'
_FIXED_ANTISLIT=8.340000
_ANALYZER_CODE=0
; None
_DATEMEASURED='31-Oct-2022 09:42:18'
_WL_UNIT='A'
_WL1=1.540600
_WL2=1.544390
_WL3=1.392220
_WLRATIO=0.500000
_ANODE='Cu'
; (Data for Range number 1)
_DRIVE='THETA'
_STEPTIME=1.000000
_STEPSIZE=0.040000
_STEPMODE='C'
_START=-1.000000
_THETA=-1.000000
_2THETA=0.000000
_KHI=0.000000
_PHI=92.46
_X=-1.000000
_Y=1.000000
_Z=0.185000
_DIVERGENCE=0.000000
_ANTISCATTER=0.000000
_DETECTOR=5
_DETECTORSLIT='unkn'
_AUX1=0.000000
_AUX2=0.000000
_AUX3=0.000000
_TIMESTARTED=3.000000
_TEMP_RATE=-1.000000
_TEMP_DELAY=-1.000000
_KV=40
_MA=35
_RANGE_WL=1.540600
_3DPLANE=0
_GONIOMETER=-0.004100
_PSDCHANNEL0=0
_2THETACOUNTS
  -1.0000         0
  -0.9600         0
  -0.9200         0
  -0.8800         0
  -0.8400         0
  -0.8000         1
  -0.7600         0
  -0.7200         0
  -0.6800         2
  -0.6400         1
  -0.6000         3
  -0.5600        10
  -0.5200        14
  -0.4800        38
  -0.4400       601
  -0.4000      8950
  -0.3600     27123
  -0.3200     57291
  -0.2800     97504
  -0.2400    149243
  -0.2000    194387
  -0.1600    260044
  -0.1200    327502
  -0.0800    391176
  -0.0400    457086
   0.0000    524363
   0.0400    568247
   0.0800    537832
   0.1200    498063
   0.1600    459425
   0.2000    423527
   0.2400    379137
   0.2800    339550
   0.3200    298976
   0.3600    255992
   0.4000    217669
   0.4400    181661
   0.4800    154620
   0.5200    119936
   0.5600     90739
   0.6000     64754
   0.6400     43814
   0.6800     27199
   0.7200     14327
   0.7600      5511
   0.8000       761
   0.8400        57
   0.8800        28
   0.9200        20
   0.9600         9
   1.0000         6

File: 4_rocking_y-1,5.UXD
; C:\DIFFDAT1\Praktikum\Popp-Weitkemper\4_rockingscan_y-1,5.raw(Diffrac Plus V1.01 file) converted by XCH V1.0
_FILEVERSION=2
_SITE='Deutschland'
_USER='Administrator'
_GONIOMETER_CODE=4885
; D8 Theta/Theta; Special
_SAMPLE_CHANGER_CODE=0
_ATTACHMENTS_CODE=0
_GONIOMETER_RADIUS=350
_FIXED_DIVSLIT=0.600000
_FIXED_SAMPLESLIT=0.000000
_FIXED_DETSLIT=11.66
_MONOCHROMATOR=0
; None
_THIN_FILM='N'
_BETA_FILTER='Y'
_FIXED_ANTISLIT=8.340000
_ANALYZER_CODE=0
; None
_DATEMEASURED='31-Oct-2022 10:17:47'
_WL_UNIT='A'
_WL1=1.540600
_WL2=1.544390
_WL3=1.392220
_WLRATIO=0.500000
_ANODE='Cu'
; (Data for Range number 1)
_DRIVE='THETA'
_STEPTIME=1.000000
_STEPSIZE=0.040000
_STEPMODE='C'
_START=-1.000000
_THETA=-1.000000
_2THETA=0.000000
_KHI=0.000000
_PHI=92.46
_X=-1.000000
_Y=-1.500000
_Z=0.206000
_DIVERGENCE=0.000000
_ANTISCATTER=0.000000
_DETECTOR=5
_DETECTORSLIT='unkn'
_AUX1=0.000000
_AUX2=0.000000
_AUX3=0.000000
_TIMESTARTED=3.000000
_TEMP_RATE=-1.000000
_TEMP_DELAY=-1.000000
_KV=40
_MA=35
_RANGE_WL=1.540600
_3DPLANE=0
_GONIOMETER=0.000000
_PSDCHANNEL0=0
_2THETACOUNTS
  -1.0000         2
  -0.9600         0
  -0.9200         1
  -0.8800         3
  -0.8400         0
  -0.8000         4
  -0.7600         5
  -0.7200         3
  -0.6800         4
  -0.6400        10
  -0.6000        13
  -0.5600        29
  -0.5200        95
  -0.4800      1288
  -0.4400      9387
  -0.4000     24536
  -0.3600     48531
  -0.3200     80138
  -0.2800    118295
  -0.2400    162928
  -0.2000    199262
  -0.1600    253053
  -0.1200    304095
  -0.0800    356061
  -0.0400    413439
   0.0000    450861
   0.0400    405942
   0.0800    351171
   0.1200    299118
   0.1600    246804
   0.2000    194387
   0.2400    158057
   0.2800    113818
   0.3200     74708
   0.3600     43221
   0.4000     21179
   0.4400      7493
   0.4800       915
   0.5200        73
   0.5600        38
   0.6000        15
   0.6400         9
   0.6800         8
   0.7200         6
   0.7600         1
   0.8000         1
   0.8400         2
   0.8800         1
   0.9200         4
   0.9600         0
   1.0000         0

File: 5_z.UXD
; C:\DIFFDAT1\Praktikum\Popp-Weitkemper\5_zscan.raw(Diffrac Plus V1.01 file) converted by XCH V1.0
_FILEVERSION=2
_SITE='Deutschland'
_USER='Administrator'
_GONIOMETER_CODE=4885
; D8 Theta/Theta; Special
_SAMPLE_CHANGER_CODE=0
_ATTACHMENTS_CODE=0
_GONIOMETER_RADIUS=350
_FIXED_DIVSLIT=0.600000
_FIXED_SAMPLESLIT=0.000000
_FIXED_DETSLIT=11.66
_MONOCHROMATOR=0
; None
_THIN_FILM='N'
_BETA_FILTER='Y'
_FIXED_ANTISLIT=8.340000
_ANALYZER_CODE=0
; None
_DATEMEASURED='31-Oct-2022 09:49:29'
_WL_UNIT='A'
_WL1=1.540600
_WL2=1.544390
_WL3=1.392220
_WLRATIO=0.500000
_ANODE='Cu'
; (Data for Range number 1)
_DRIVE='Z'
_STEPTIME=1.000000
_STEPSIZE=0.020000
_STEPMODE='S'
_START=-0.500000
_THETA=0.000000
_2THETA=0.000000
_KHI=0.000000
_PHI=92.46
_X=-1.000000
_Y=-1.000000
_Z=-0.500000
_DIVERGENCE=0.000000
_ANTISCATTER=0.000000
_DETECTOR=5
_DETECTORSLIT='unkn'
_AUX1=0.000000
_AUX2=0.000000
_AUX3=0.000000
_TIMESTARTED=3.000000
_TEMP_RATE=-1.000000
_TEMP_DELAY=-1.000000
_KV=40
_MA=35
_RANGE_WL=1.540600
_3DPLANE=0
_GONIOMETER=0.000000
_PSDCHANNEL0=0
_2THETACOUNTS
  -0.5000    785126
  -0.4800    777953
  -0.4600    780536
  -0.4400    781903
  -0.4200    781847
  -0.4000    781942
  -0.3800    785481
  -0.3600    780496
  -0.3400    783688
  -0.3200    779841
  -0.3000    783380
  -0.2800    781476
  -0.2600    786200
  -0.2400    785845
  -0.2200    779398
  -0.2000    781934
  -0.1800    783885
  -0.1600    779066
  -0.1400    782384
  -0.1200    781334
  -0.1000    782550
  -0.0800    778893
  -0.0600    781255
  -0.0400    783980
  -0.0200    776696
   0.0000    777913
   0.0200    783546
   0.0400    778308
   0.0600    778837
   0.0800    778482
   0.1000    781318
   0.1200    780883
   0.1400    753020
   0.1600    678563
   0.1800    574607
   0.2000    433426
   0.2200    279305
   0.2400    137729
   0.2600     49217
   0.2800      3379
   0.3000        32
   0.3200         4
   0.3400         1
   0.3600         2
   0.3800         0
   0.4000         0
   0.4200         0
   0.4400         0
   0.4600         0
   0.4800         0
   0.5000         0

File: 6_rocking_1.UXD
; C:\DIFFDAT1\Praktikum\Popp-Weitkemper\6_rockingscan_1.raw(Diffrac Plus V1.01 file) converted by XCH V1.0
_FILEVERSION=2
_SITE='Deutschland'
_USER='Administrator'
_GONIOMETER_CODE=4885
; D8 Theta/Theta; Special
_SAMPLE_CHANGER_CODE=0
_ATTACHMENTS_CODE=0
_GONIOMETER_RADIUS=350
_FIXED_DIVSLIT=0.600000
_FIXED_SAMPLESLIT=0.000000
_FIXED_DETSLIT=11.66
_MONOCHROMATOR=0
; None
_THIN_FILM='N'
_BETA_FILTER='Y'
_FIXED_ANTISLIT=8.340000
_ANALYZER_CODE=0
; None
_DATEMEASURED='31-Oct-2022 09:55:48'
_WL_UNIT='A'
_WL1=1.540600
_WL2=1.544390
_WL3=1.392220
_WLRATIO=0.500000
_ANODE='Cu'
; (Data for Range number 1)
_DRIVE='THETA'
_STEPTIME=0.999980
_STEPSIZE=0.005000
_STEPMODE='C'
_START=0.000000
_THETA=0.000000
_2THETA=0.300000
_KHI=0.000000
_PHI=92.46
_X=-1.000000
_Y=-1.000000
_Z=0.206000
_DIVERGENCE=0.000000
_ANTISCATTER=0.000000
_DETECTOR=5
_DETECTORSLIT='unkn'
_AUX1=0.000000
_AUX2=0.000000
_AUX3=0.000000
_TIMESTARTED=1.000000
_TEMP_RATE=-1.000000
_TEMP_DELAY=-1.000000
_KV=40
_MA=35
_RANGE_WL=1.540600
_3DPLANE=0
_GONIOMETER=0.299700
_PSDCHANNEL0=0
_2THETACOUNTS
   0.0000      3309
   0.0050      3248
   0.0100      3271
   0.0150      3245
   0.0200      3268
   0.0250      3350
   0.0300      3211
   0.0350      3312
   0.0400      3313
   0.0450      3409
   0.0500      3302
   0.0550      3336
   0.0600      3330
   0.0650      3384
   0.0700      3424
   0.0750      3354
   0.0800      3492
   0.0850      3492
   0.0900      3667
   0.0950      3690
   0.1000      3986
   0.1050      4146
   0.1100      4475
   0.1150      4873
   0.1200      5502
   0.1250      6049
   0.1300      7008
   0.1350      8391
   0.1400     10033
   0.1450     12096
   0.1500     14729
   0.1550     17422
   0.1600     20369
   0.1650     24736
   0.1700     36122
   0.1750     68409
   0.1800    132762
   0.1850    216184
   0.1900    274091
   0.1950    301219
   0.2000    313109
   0.2050    310083
   0.2100    289266
   0.2150    243107
   0.2200    167891
   0.2250     91398
   0.2300     49365
   0.2350     28804
   0.2400     22582
   0.2450     18050
   0.2500     14245
   0.2550     11536
   0.2600      9365
   0.2650      7776
   0.2700      6623
   0.2750      5736
   0.2800      4952
   0.2850      4602
   0.2900      4134
   0.2950      4008
   0.3000      3780

File: 6_rocking_2.UXD
; C:\DIFFDAT1\Praktikum\Popp-Weitkemper\6_rockingscan_2.raw(Diffrac Plus V1.01 file) converted by XCH V1.0
_FILEVERSION=2
_SITE='Deutschland'
_USER='Administrator'
_GONIOMETER_CODE=4885
; D8 Theta/Theta; Special
_SAMPLE_CHANGER_CODE=0
_ATTACHMENTS_CODE=0
_GONIOMETER_RADIUS=350
_FIXED_DIVSLIT=0.600000
_FIXED_SAMPLESLIT=0.000000
_FIXED_DETSLIT=11.66
_MONOCHROMATOR=0
; None
_THIN_FILM='N'
_BETA_FILTER='Y'
_FIXED_ANTISLIT=8.340000
_ANALYZER_CODE=0
; None
_DATEMEASURED='31-Oct-2022 10:02:11'
_WL_UNIT='A'
_WL1=1.540600
_WL2=1.544390
_WL3=1.392220
_WLRATIO=0.500000
_ANODE='Cu'
; (Data for Range number 1)
_DRIVE='THETA'
_STEPTIME=0.999980
_STEPSIZE=0.005000
_STEPMODE='C'
_START=0.000000
_THETA=0.000000
_2THETA=0.300000
_KHI=0.000000
_PHI=92.46
_X=-1.000000
_Y=-1.000000
_Z=0.206000
_DIVERGENCE=0.000000
_ANTISCATTER=0.000000
_DETECTOR=5
_DETECTORSLIT='unkn'
_AUX1=0.000000
_AUX2=0.000000
_AUX3=0.000000
_TIMESTARTED=2.000000
_TEMP_RATE=-1.000000
_TEMP_DELAY=-1.000000
_KV=40
_MA=35
_RANGE_WL=1.540600
_3DPLANE=0
_GONIOMETER=0.300000
_PSDCHANNEL0=0
_2THETACOUNTS
   0.0000      3343
   0.0050      3281
   0.0100      3264
   0.0150      3324
   0.0200      3388
   0.0250      3273
   0.0300      3301
   0.0350      3294
   0.0400      3312
   0.0450      3328
   0.0500      3334
   0.0550      3375
   0.0600      3367
   0.0650      3444
   0.0700      3325
   0.0750      3481
   0.0800      3417
   0.0850      3620
   0.0900      3797
   0.0950      3820
   0.1000      3934
   0.1050      4052
   0.1100      4381
   0.1150      4878
   0.1200      5369
   0.1250      6168
   0.1300      6909
   0.1350      8168
   0.1400     10010
   0.1450     11959
   0.1500     14431
   0.1550     17209
   0.1600     20094
   0.1650     24260
   0.1700     35924
   0.1750     67207
   0.1800    131092
   0.1850    211507
   0.1900    267897
   0.1950    302523
   0.2000    309214
   0.2050    304261
   0.2100    289353
   0.2150    244734
   0.2200    166737
   0.2250     90681
   0.2300     49381
   0.2350     28656
   0.2400     22260
   0.2450     17732
   0.2500     14356
   0.2550     11524
   0.2600      9296
   0.2650      7839
   0.2700      6651
   0.2750      5549
   0.2800      4989
   0.2850      4540
   0.2900      4216
   0.2950      3927
   0.3000      3752